AX,AY,AZ,GX,GY,GZ,Result
6.92,0.99,-0.46,0.2,0.37,-1.53,1
7.96,8.28,1.23,-0.55,0.29,-1.82,1
6.75,13.65,0.09,-1.41,-0.3,-1.95,1
7.4,20.82,1.89,-1.01,-0.38,-0.79,1
9.76,23.46,3.78,-0.82,0.13,0.01,1
8.94,12.98,-2.7,-1.21,-0.56,-0.77,1
7.89,12.95,-2.19,-1.56,0.01,0.47,1
9.4,14.37,-2.45,-2.11,0.58,0.68,1
12.57,8.39,0.27,-2.72,0.39,0.08,1
8.62,6.46,1.26,-2.32,0.39,-1.12,1
2.5,6.33,4.5,-1.92,0.29,-0.05,1
1.41,-1.6,8.66,-1.14,0.53,1.1,1
4.91,-0.09,4.75,-0.07,-0.66,0.17,1
6.1,0.41,6.48,1.15,0.19,-0.15,1
4.1,2.96,7.38,2.07,0.46,-0.06,1
5.72,8.7,4.74,1.9,0.18,0.39,1
7.27,11.04,2.54,2.76,0.14,0.48,1
8.43,13.5,-0.85,3.14,0.09,-0.2,1
7.65,17.67,-0.84,1.03,0.85,0.26,1
6.3,13.89,4.28,2.0,0.71,0.26,1
6.91,16.91,6.01,2.02,1.39,1.55,1
7.9,16.45,5.52,2.55,1.29,1.59,1
7.74,11.42,5.14,1.89,0.45,2.09,1
4.35,9.22,1.39,1.35,-0.52,1.74,1
4.09,-3.24,-3.37,0.4,-0.77,0.94,1
2.24,-1.19,0.01,-0.99,-0.73,0.58,1
6.95,-1.01,-0.8,1.13,0.13,-0.68,1
4.84,-1.64,-2.37,0.7,0.44,-1.44,1
6.45,4.87,-0.47,-0.57,0.63,-2.07,1
5.82,8.93,0.19,-1.28,0.27,-1.9,1
6.09,16.03,4.75,-1.62,-0.33,-1.37,1
8.27,19.43,5.9,-0.71,-0.51,-0.26,1
7.26,18.0,2.6,-0.96,-0.05,-0.11,1
8.03,15.79,-4.23,-2.37,-0.21,-0.71,1
10.27,14.28,-2.07,-1.85,0.12,0.38,1
11.99,13.39,-1.44,-2.47,0.28,0.46,1
8.89,10.15,1.27,-1.98,0.62,-0.64,1
3.37,5.54,3.65,-1.65,0.48,-0.12,1
1.13,1.41,8.1,-0.84,1.3,1.61,1
6.59,-2.77,7.07,-0.06,-0.22,0.92,1
2.8,1.97,7.75,0.67,-0.23,-0.33,1
2.04,5.54,8.15,1.04,0.17,-0.16,1
3.77,8.5,5.56,0.77,-0.03,-0.22,1
8.31,11.21,4.11,2.2,0.21,0.37,1
9.61,11.98,0.6,3.64,0.2,-0.04,1
9.06,24.82,-6.47,3.07,1.0,-0.93,1
6.8,16.71,1.06,1.28,1.16,-0.06,1
6.3,16.29,4.0,1.45,1.44,1.36,1
9.18,17.99,5.52,1.85,1.57,1.52,1
7.15,15.67,5.61,2.17,1.33,1.86,1
5.35,9.48,4.08,2.33,0.88,2.08,1
2.74,1.37,-1.27,0.44,-0.79,0.76,1
1.45,-5.54,-5.73,-0.07,-0.63,1.44,1
6.17,2.25,3.51,0.62,1.07,-0.24,1
3.77,-0.86,2.17,0.3,-0.71,-1.34,1
5.86,0.81,0.5,0.01,-0.26,-1.87,1
6.97,8.49,-1.0,-0.78,0.04,-2.29,1
4.08,15.86,2.63,-1.76,-0.5,-1.93,1
3.07,21.6,4.03,-0.82,-0.87,-0.61,1
5.81,20.56,2.73,-1.41,-0.24,0.11,1
6.48,13.54,-1.93,-1.14,-0.6,-0.18,1
8.95,17.48,-2.27,-1.53,0.06,0.37,1
10.3,16.52,-2.65,-2.26,0.7,0.74,1
10.7,9.16,0.39,-2.07,0.84,0.26,1
7.06,7.61,3.12,-1.88,0.7,-0.65,1
1.79,2.84,7.78,-1.41,1.17,0.64,1
5.94,-0.31,8.61,-0.05,0.34,1.0,1
3.25,2.52,7.04,0.66,0.04,-0.28,1
1.12,4.32,7.11,0.95,0.11,-0.06,1
3.16,7.9,5.41,1.5,-0.04,-0.03,1
6.57,13.47,3.52,2.75,0.32,0.18,1
9.13,15.4,-0.71,3.54,0.45,-0.28,1
7.86,23.48,-5.19,1.96,0.93,-0.77,1
6.18,17.5,1.52,1.19,1.46,0.32,1
6.41,16.74,3.19,1.37,1.65,1.05,1
6.76,19.46,3.92,1.53,2.06,1.74,1
6.61,18.86,5.0,1.71,1.6,2.4,1
6.26,10.56,3.79,2.39,1.24,2.6,1
4.32,4.08,1.7,1.16,0.44,1.1,1
2.47,0.74,-2.59,-0.01,-0.43,0.1,1
6.82,0.15,2.5,0.2,0.13,0.59,1
6.29,0.8,3.76,1.16,-0.01,-0.56,1
6.8,1.47,0.69,0.83,-0.26,-2.08,1
5.62,8.92,-0.46,-0.35,-0.5,-2.1,1
5.85,15.52,1.49,-1.76,-0.16,-1.21,1
7.21,20.84,4.45,-0.34,-1.05,-0.78,1
3.68,18.21,2.45,-0.56,-0.69,-0.34,1
3.79,16.31,-2.6,-1.43,-0.16,0.34,1
7.81,16.3,-3.09,-1.51,0.14,0.42,1
9.62,17.4,-1.56,-2.01,0.45,0.93,1
11.67,12.61,-0.06,-1.99,0.65,0.09,1
8.96,9.17,2.48,-2.18,0.56,-0.15,1
2.03,6.62,5.37,-1.92,0.85,0.36,1
-1.38,2.2,8.98,-0.4,1.55,1.34,1
4.95,-0.14,6.83,0.0,-0.17,0.58,1
2.24,1.56,7.35,0.7,-0.69,-0.39,1
4.63,4.25,6.91,1.56,0.15,-0.12,1
5.5,9.92,3.46,2.2,0.61,-0.13,1
6.69,17.07,3.34,2.97,0.35,0.19,1
8.94,14.56,-3.3,2.23,0.45,-0.76,1
5.12,19.47,-0.05,0.87,1.37,-0.2,1
4.09,15.72,3.73,1.48,1.54,0.84,1
6.05,18.98,3.94,1.6,1.83,1.96,1
6.77,16.96,6.6,2.07,1.21,2.46,1
11.91,9.59,5.04,2.28,0.3,2.11,1
4.21,3.61,1.42,1.99,0.27,1.86,1
3.81,-6.71,-1.94,0.17,-0.74,0.87,1
5.37,-0.12,3.54,0.26,0.17,0.05,1
5.17,-0.41,1.2,1.27,0.07,-1.19,1
6.11,2.2,-0.7,0.79,0.04,-1.82,1
7.13,6.83,-0.17,-0.47,-0.21,-2.02,1
7.65,14.84,3.5,-1.55,0.07,-1.44,1
7.15,23.22,5.65,-0.7,-0.84,-1.1,1
-0.56,28.77,-1.45,0.03,-0.62,-0.88,1
5.88,17.31,-3.49,-1.28,-0.51,-0.34,1
7.32,16.81,-3.05,-1.3,-0.28,0.55,1
11.08,17.84,-3.44,-2.0,0.26,0.89,1
8.73,15.71,-0.2,-2.36,0.92,0.35,1
6.47,11.1,2.62,-2.52,0.95,0.34,1
0.69,6.36,6.37,-2.02,1.01,0.19,1
-0.62,3.23,9.35,-1.31,0.14,1.09,1
7.09,-0.98,5.1,0.69,-1.12,0.61,1
3.66,1.29,6.95,1.38,-0.65,-0.72,1
5.6,5.22,3.99,1.97,-0.52,-0.59,1
5.7,11.24,1.64,1.66,0.66,0.04,1
8.07,14.28,2.64,3.07,0.39,0.54,1
9.2,13.56,-4.33,2.7,0.44,-1.42,1
6.86,16.17,-2.27,1.23,1.4,-0.45,1
5.26,14.1,2.54,1.93,1.41,0.51,1
6.7,17.9,3.03,1.85,1.87,1.73,1
7.6,16.78,4.41,1.65,1.74,2.7,1
10.48,11.78,5.18,2.41,1.08,1.83,1
6.13,9.29,4.2,1.89,-0.52,1.17,1
6.44,-0.81,0.36,-0.02,-0.37,0.81,1
3.79,-1.4,-0.03,-0.71,-0.85,0.51,1
4.0,0.72,3.2,0.74,0.63,-0.53,1
2.73,-0.07,2.11,0.69,-0.28,-0.97,1
5.71,4.08,0.21,-0.19,-0.25,-1.8,1
6.3,11.74,1.01,-1.41,-0.02,-2.04,1
6.09,19.44,4.64,-2.22,-0.03,-1.16,1
5.29,17.59,4.04,-1.19,-0.83,-0.81,1
7.73,20.93,3.72,-1.07,-0.34,-0.28,1
8.56,15.91,-1.64,-1.12,-0.19,-0.36,1
10.36,16.51,-3.16,-1.67,0.19,0.1,1
9.54,12.86,-2.37,-2.59,0.48,0.19,1
8.45,10.67,1.13,-2.67,0.76,0.07,1
6.92,7.8,4.71,-1.8,0.74,-0.04,1
-2.66,6.32,5.93,-2.52,0.16,-0.36,1
2.19,-0.68,8.63,0.82,0.68,1.93,1
7.61,1.04,5.1,0.34,-0.36,0.22,1
3.93,1.57,8.26,1.05,0.14,-0.23,1
2.47,4.35,7.9,1.59,0.48,-0.29,1
4.06,11.71,6.56,0.97,0.14,-0.12,1
5.73,12.34,4.1,2.96,0.3,0.72,1
8.76,13.72,-1.49,3.74,0.66,0.29,1
6.72,18.36,2.63,0.92,1.35,0.58,1
6.31,17.4,4.45,2.06,1.21,0.64,1
6.16,17.48,5.91,2.42,1.77,2.01,1
7.98,16.12,3.76,2.35,1.33,2.24,1
10.65,10.98,4.23,2.12,0.71,2.14,1
4.34,6.42,1.67,1.39,-0.07,1.42,1
0.26,-1.85,-2.35,0.61,-0.2,1.17,1
3.71,-4.08,2.85,-0.65,0.01,0.7,1
6.99,-1.98,2.73,1.18,0.12,-1.07,1
3.03,0.28,2.56,0.66,-0.38,-1.23,1
6.69,4.77,1.9,-0.39,-0.26,-1.89,1
5.44,12.35,1.38,-1.54,0.09,-2.1,1
3.88,19.91,4.18,-1.5,-0.62,-1.29,1
7.08,26.86,-3.23,-1.21,-0.57,-0.69,1
7.67,16.12,1.72,-1.47,0.06,-0.2,1
5.5,16.52,-4.53,-1.52,0.14,0.13,1
10.93,12.34,-2.2,-2.22,0.88,0.96,1
11.94,11.56,1.53,-2.41,0.82,-0.06,1
8.63,7.76,3.79,-2.39,0.77,-0.1,1
1.38,5.15,4.39,-2.23,0.44,-0.88,1
0.66,1.33,6.34,-1.69,1.0,0.71,1
5.48,-0.29,6.37,0.05,-0.41,0.39,1
3.79,0.73,7.23,1.33,-0.34,-0.24,1
2.77,4.98,6.65,1.86,-0.01,-0.1,1
5.17,8.96,6.06,1.86,0.24,0.29,1
7.4,11.8,3.34,3.0,0.29,0.48,1
8.72,15.12,-0.81,2.69,0.41,0.19,1
6.72,23.62,-0.93,2.33,0.9,-0.15,1
5.97,17.0,4.48,2.49,1.03,0.92,1
6.39,15.74,6.0,2.72,1.29,2.02,1
10.9,13.31,6.19,2.7,0.69,2.1,1
8.6,10.55,3.44,2.4,0.85,2.18,1
3.8,2.96,1.84,1.28,-0.62,1.22,1
4.37,-6.02,-3.04,0.72,-0.32,1.12,1
3.84,1.08,3.13,0.11,0.27,0.02,1
3.52,-0.76,0.57,1.34,-0.53,-0.64,1
2.53,0.68,2.0,0.42,-0.18,-1.28,1
5.95,4.98,-3.31,-0.75,0.55,-2.19,1
8.24,10.21,1.15,-2.32,0.38,-2.29,1
3.68,19.25,10.0,-2.19,-1.23,-1.26,1
4.69,23.36,3.91,-0.55,-0.31,0.21,1
10.48,13.04,-3.79,-1.55,-0.1,-0.64,1
9.59,13.84,-3.89,-1.7,0.02,-0.05,1
14.63,12.72,-0.26,-2.62,0.61,-0.08,1
9.73,12.5,3.43,-1.96,0.45,-0.14,1
5.57,9.43,3.22,-1.76,0.8,-0.22,1
-0.21,3.22,5.98,-1.77,0.54,0.44,1
7.46,-3.45,8.09,-0.67,-0.0,1.57,1
1.93,1.53,4.9,0.15,-0.83,-0.62,1
2.42,1.52,5.89,0.89,-0.07,-0.09,1
3.34,5.84,6.12,1.89,0.63,0.5,1
5.32,9.09,6.07,2.4,0.17,0.43,1
10.98,12.74,2.22,3.28,-0.24,0.23,1
12.42,16.14,-5.11,2.19,0.33,-1.29,1
2.67,18.3,2.49,1.43,1.5,0.93,1
4.92,14.44,7.47,2.46,1.19,2.07,1
8.92,13.89,8.09,2.98,0.77,2.52,1
11.77,9.81,4.74,3.44,0.3,1.77,1
3.23,6.5,4.14,2.46,-0.04,1.12,1
4.34,-3.77,-1.08,0.33,-0.79,1.06,1
2.7,1.85,4.45,-0.37,0.13,0.02,1
3.44,0.92,-1.18,0.89,-0.19,-0.74,1
6.04,1.95,-0.45,0.65,0.16,-0.9,1
5.73,1.97,0.81,-0.16,-0.17,-1.6,1
7.34,5.11,1.6,-1.39,-0.16,-1.7,1
7.66,12.63,4.25,-2.3,-0.51,-1.53,1
7.49,19.49,5.75,-1.29,-1.77,-1.08,1
4.62,17.73,-1.64,-1.21,-0.68,-0.21,1
7.12,13.87,-1.68,-1.6,-0.5,0.45,1
11.39,18.15,-2.48,-2.24,0.6,1.26,1
13.9,13.58,1.37,-2.32,0.98,0.6,1
10.93,8.99,3.0,-2.43,0.1,-0.97,1
0.25,6.11,5.17,-1.72,-0.0,-0.04,1
0.33,3.33,7.22,-0.41,0.72,1.68,1
6.81,0.08,6.81,0.35,0.35,0.07,1
1.23,3.11,7.08,0.82,0.21,-0.26,1
1.25,4.17,6.78,1.53,0.29,0.27,1
6.11,8.02,4.98,1.33,0.08,0.33,1
8.8,12.95,3.07,3.55,0.38,0.92,1
11.43,14.85,-2.51,2.94,0.45,0.64,1
7.33,19.03,1.88,1.51,0.97,0.56,1
5.35,16.44,4.93,2.01,0.8,1.17,1
8.12,15.74,7.08,2.66,1.01,2.46,1
11.91,12.74,4.45,3.02,0.7,2.64,1
7.16,13.26,3.26,1.46,-0.32,0.91,1
2.37,2.28,0.78,1.94,-0.11,1.31,1
7.25,-9.09,0.78,-0.59,-0.95,1.09,1
7.63,-0.05,3.12,1.8,0.4,-0.14,1
2.18,-1.21,-0.85,0.7,-0.24,-1.49,1
5.29,3.57,-0.56,-0.18,0.16,-1.94,1
4.9,10.29,2.01,-1.43,0.08,-1.95,1
6.96,13.1,5.16,-2.0,-0.77,-1.82,1
5.84,21.39,9.54,-1.18,-0.9,-0.31,1
7.83,19.11,1.47,-1.4,0.01,-0.03,1
8.48,15.0,-3.05,-1.22,-0.17,-0.11,1
8.86,16.28,-2.35,-1.66,0.09,0.14,1
8.96,13.93,-2.01,-2.2,0.43,0.34,1
6.34,10.15,1.72,-2.52,1.53,0.47,1
0.76,6.42,5.98,-1.8,1.51,0.63,1
-1.99,-1.13,9.75,-0.56,1.04,1.39,1
6.94,-0.15,7.0,-0.06,-0.51,0.22,1
1.73,0.95,8.34,0.77,-0.41,-0.42,1
2.35,4.93,7.66,0.96,0.29,-0.42,1
6.49,7.63,6.17,1.98,0.61,0.54,1
7.86,12.48,3.58,3.19,-0.07,0.69,1
8.07,13.41,-1.08,2.88,0.2,-0.08,1
7.94,19.94,-1.16,2.01,1.31,0.63,1
8.22,16.73,5.5,2.18,1.11,0.81,1
7.68,18.27,5.85,2.86,0.98,1.54,1
6.83,14.34,3.98,2.96,0.68,1.77,1
6.99,9.73,2.62,2.3,-0.06,1.71,1
4.53,-0.56,1.11,0.97,0.33,1.38,1
5.19,-3.12,-0.97,-1.05,-1.33,0.49,1
4.83,0.19,-0.27,0.93,0.89,-0.25,1
6.09,0.1,0.65,0.97,0.42,-0.72,1
5.92,1.4,1.6,0.26,0.72,-1.32,1
10.33,5.08,0.38,-0.31,0.23,-1.83,1
7.0,13.58,5.19,-1.16,0.08,-1.55,1
1.89,19.41,6.6,-1.7,-0.8,-0.76,1
5.54,20.28,3.83,-1.27,-0.46,-0.6,1
9.53,15.12,0.49,-1.41,0.13,-0.32,1
8.64,14.77,-2.27,-1.71,0.37,0.02,1
9.37,14.87,-0.02,-2.51,0.54,0.08,1
8.6,11.65,2.38,-2.45,0.73,-0.05,1
6.37,2.72,3.9,-1.64,0.91,-0.41,1
-1.08,2.96,7.04,-1.37,1.04,0.26,1
3.96,0.22,7.37,0.0,-0.43,0.82,1
1.24,3.24,6.47,0.53,0.09,-0.0,1
1.84,3.17,7.08,0.41,0.39,-0.03,1
1.19,5.48,6.56,1.75,0.16,0.52,1
5.82,9.82,6.85,1.52,-0.06,0.87,1
8.74,13.11,4.12,2.97,-0.55,1.25,1
8.23,12.75,-1.09,3.33,0.01,0.11,1
6.04,15.4,3.63,1.51,1.08,0.38,1
5.81,14.52,5.52,2.0,0.81,0.81,1
7.23,15.18,8.33,2.2,1.02,1.73,1
9.16,16.42,7.69,2.24,0.77,1.82,1
10.99,10.03,7.05,2.98,0.16,1.91,1
0.49,1.13,-0.1,2.42,-0.21,1.36,1
5.93,-9.74,-2.05,-0.46,-0.86,1.09,1
4.62,2.21,3.07,0.58,1.59,-0.41,1
3.66,-2.65,3.57,0.8,-0.24,-1.52,1
4.96,2.26,4.89,0.5,-0.81,-1.61,1
3.94,9.95,-0.62,-1.2,-0.82,-1.95,1
6.22,17.57,2.66,-1.56,-1.36,-1.21,1
10.9,41.03,-11.58,-1.27,-0.31,-1.08,1
7.14,17.37,-0.7,-1.84,-0.1,-0.25,1
4.23,18.4,-3.86,-1.73,0.09,0.89,1
9.03,17.03,-3.06,-2.75,0.34,0.69,1
9.99,11.86,2.21,-2.25,0.72,0.35,1
1.88,7.6,5.82,-1.52,1.31,-0.17,1
-1.73,-1.06,8.02,-0.46,1.09,1.7,1
6.27,1.16,5.51,0.29,-0.32,0.25,1
1.08,-1.53,11.27,1.84,-0.86,-0.29,1
1.45,6.45,6.48,1.51,-0.7,-0.54,1
6.13,15.22,1.16,2.11,0.76,-0.16,1
6.36,16.34,-0.4,3.65,0.79,0.5,1
8.57,24.85,-2.51,4.39,1.51,0.57,1
8.15,17.96,4.6,2.27,1.09,0.63,1
6.81,17.61,9.61,2.83,1.45,2.44,1
8.61,14.68,6.45,2.84,0.22,2.53,1
9.49,1.41,3.84,3.47,-0.7,1.89,1
-1.44,-7.78,-0.36,0.77,0.59,0.71,1
6.64,-0.28,8.37,-1.51,-1.0,0.74,1
6.21,-5.63,4.24,1.48,-0.24,-1.6,1
4.63,-0.99,-1.39,0.15,-0.05,-1.92,1
3.17,8.58,3.06,-2.41,0.05,-1.63,1
7.25,18.04,7.59,-2.25,-0.52,-0.98,1
12.36,36.59,-3.2,-1.37,-0.67,-1.6,1
8.44,16.7,-0.69,-2.63,-0.4,-1.33,1
6.58,16.9,-3.23,-2.82,0.19,0.63,1
8.53,15.82,-1.86,-2.55,0.78,0.37,1
9.86,8.93,4.28,-2.17,0.89,0.23,1
-0.77,4.74,4.89,-1.44,-0.13,-0.19,1
1.96,-4.79,6.77,-0.12,0.47,1.43,1
7.68,-1.67,5.07,1.16,-1.07,-0.23,1
1.2,-0.56,7.23,1.67,0.39,-0.22,1
-0.09,7.23,5.41,1.41,0.51,-0.11,1
6.24,12.7,4.5,1.9,0.71,0.58,1
8.6,15.19,0.98,3.4,0.29,0.64,1
10.81,21.9,-3.04,3.54,0.7,0.18,1
8.99,19.87,5.58,2.94,1.34,2.12,1
6.72,15.33,12.22,3.05,0.65,3.48,1
8.03,7.8,5.66,2.6,-0.82,2.54,1
5.56,1.55,-0.08,1.55,-0.15,1.02,1
3.41,-11.93,-2.42,-0.58,-0.58,0.97,1
1.99,0.65,3.28,0.9,1.27,-0.63,1
1.73,-2.83,0.34,0.42,-0.42,-1.57,1
5.63,-0.2,-0.58,0.2,-0.19,-1.85,1
6.63,8.15,0.59,-0.86,-0.0,-1.95,1
6.59,15.39,6.66,-1.86,-0.35,-1.35,1
8.88,22.08,7.19,-2.82,-1.09,-0.32,1
8.96,12.46,3.25,-2.57,-0.02,-0.15,1
9.95,15.54,-4.02,-1.71,0.59,-0.53,1
10.38,9.97,-3.02,-2.63,0.52,0.22,1
9.28,6.05,2.74,-2.25,1.03,-0.05,1
0.48,1.91,5.55,-1.83,-0.05,0.69,1
3.09,-3.26,4.74,0.13,-0.69,1.4,1
0.62,-0.51,4.3,0.24,-1.0,-0.73,1
3.41,-1.16,8.07,1.71,0.26,-0.83,1
4.92,6.62,4.17,2.63,0.44,-0.45,1
5.94,15.33,0.31,2.87,0.36,-0.26,1
9.8,17.33,-4.78,2.14,0.56,-0.1,1
7.52,18.82,6.22,0.61,1.11,1.39,1
9.97,18.96,5.05,2.58,0.75,0.72,1
4.82,15.93,7.53,2.87,0.99,2.44,1
9.37,10.87,5.05,2.94,0.86,2.36,1
4.77,2.13,2.05,1.52,-0.59,1.28,1
2.86,-6.31,-2.76,-0.15,-0.7,0.71,1
2.03,-0.28,2.23,-0.41,0.59,-0.44,1
3.27,-2.95,2.74,1.09,0.15,-1.07,1
6.17,-0.07,2.31,0.1,-0.73,-1.9,1
5.04,9.56,2.49,-1.32,-0.74,-2.35,1
5.1,19.24,4.36,-2.23,-0.66,-1.65,1
6.79,22.72,5.42,-1.1,-0.79,-0.06,1
8.11,14.31,4.61,-2.29,-0.32,-0.01,1
5.72,19.13,-5.36,-1.64,0.03,-0.35,1
8.49,16.75,0.38,-3.02,0.82,0.38,1
8.53,11.3,3.93,-2.66,1.29,-0.14,1
-1.07,3.05,8.68,-1.78,0.78,0.23,1
1.42,-1.63,8.71,-0.06,0.03,1.12,1
2.68,1.59,4.75,-0.45,-1.38,-0.74,1
3.6,-0.62,8.92,0.99,-0.33,-0.66,1
4.89,5.06,6.62,2.23,-0.1,0.0,1
7.25,12.56,2.46,1.77,0.34,-0.35,1
11.31,14.25,0.73,3.08,0.74,1.04,1
14.31,25.03,-8.46,3.85,1.39,-0.43,1
6.64,17.1,4.7,2.05,1.36,0.66,1
3.88,17.09,7.69,2.59,1.59,1.99,1
6.37,15.27,5.09,2.96,1.13,2.57,1
10.29,10.05,2.61,2.57,0.11,1.72,1
1.76,1.72,-1.81,0.63,-1.29,0.96,1
3.81,-9.79,-3.2,0.58,0.49,0.98,1
6.11,3.36,2.3,1.78,1.57,-0.76,1
2.87,-4.35,0.44,0.47,-0.02,-2.44,1
6.79,5.8,-1.81,-0.24,0.24,-2.3,1
3.9,13.06,3.44,-2.0,-0.28,-1.77,1
6.38,18.73,8.38,-0.98,-1.1,-0.48,1
8.03,27.6,4.01,-0.81,-0.58,-0.46,1
9.73,17.45,-8.38,-2.97,-0.16,-0.19,1
7.95,9.4,-0.09,-3.64,0.32,0.6,1
11.78,10.87,3.87,-2.03,0.62,-0.81,1
5.21,7.49,3.99,-1.56,0.48,0.03,1
-0.52,-3.47,7.23,-1.35,-0.22,1.89,1
13.1,-2.04,3.23,0.65,-0.99,-0.4,1
-1.9,0.07,8.39,1.78,-0.02,-0.49,1
1.18,3.76,5.94,1.39,0.67,-0.76,1
10.48,13.61,3.11,2.39,0.63,-0.29,1
8.02,18.73,-1.7,2.42,0.51,0.57,1
5.95,19.63,-0.13,3.16,1.33,0.8,1
7.46,20.15,7.98,2.05,1.31,2.44,1
6.39,15.63,8.94,2.36,0.68,2.61,1
8.87,11.31,4.93,1.88,0.31,2.16,1
6.35,4.89,0.33,1.41,-0.73,1.16,1
0.91,-7.96,-3.23,1.17,-0.38,1.62,1
-0.91,-0.9,5.51,-1.33,0.21,-0.19,1
7.3,-10.17,3.52,1.08,-0.76,-1.56,1
3.38,-1.21,-0.05,0.67,0.42,-1.94,1
4.66,9.3,-0.45,-0.76,0.64,-1.63,1
5.27,17.95,7.96,-2.5,-0.02,-1.5,1
9.82,21.28,5.56,-1.8,-0.85,-1.32,1
7.07,12.19,2.39,-1.96,-0.41,-0.57,1
7.38,12.98,-3.78,-1.3,0.04,-0.23,1
10.56,14.76,-0.14,-2.24,0.66,-0.4,1
8.45,13.82,3.19,-2.35,0.9,-0.34,1
2.6,8.64,5.44,-1.51,0.61,-0.24,1
-0.3,-2.53,6.93,0.1,0.24,1.51,1
8.96,-1.96,5.21,1.0,-0.76,-0.06,1
-0.49,1.81,8.38,0.6,0.47,-0.73,1
2.02,7.89,5.35,1.82,0.42,-0.37,1
5.92,18.99,2.15,2.68,0.96,-0.11,1
8.49,18.08,-5.98,2.26,0.86,-0.03,1
4.16,19.83,-1.79,1.45,1.91,0.67,1
5.86,20.14,7.35,2.34,1.52,1.0,1
5.24,15.67,8.7,2.97,1.69,2.55,1
6.05,12.26,4.87,2.27,0.59,2.23,1
7.46,5.57,0.67,1.99,-0.33,1.34,1
2.82,-7.8,-1.95,0.97,-0.66,1.87,1
4.26,-1.7,4.01,-0.92,-0.27,-0.34,1
3.61,-2.52,0.61,0.75,-0.23,-1.31,1
3.39,0.91,-1.1,0.59,0.47,-1.34,1
9.05,9.68,-2.2,-1.49,0.34,-2.01,1
12.01,19.15,5.56,-1.73,-0.05,-1.52,1
9.19,38.19,-4.01,-1.32,-0.46,-2.09,1
7.0,17.25,-3.31,-2.5,-0.1,-1.0,1
8.45,14.9,-1.93,-2.42,-0.08,0.76,1
10.54,16.69,-2.53,-2.29,0.31,0.4,1
7.66,11.29,1.28,-2.43,0.6,0.03,1
5.33,8.7,4.49,-1.55,0.59,0.04,1
-0.45,0.39,5.41,0.03,0.22,1.25,1
10.69,1.32,6.62,-1.52,0.87,0.79,1
-1.67,2.0,7.92,0.41,-0.51,-0.45,1
-0.09,1.5,4.86,1.11,0.11,-0.59,1
4.76,5.93,5.11,1.49,0.49,-0.06,1
9.72,15.97,5.19,2.71,0.51,0.77,1
9.49,15.24,1.9,2.39,0.08,0.84,1
9.53,17.7,1.44,2.61,0.88,0.84,1
6.22,16.84,9.03,3.06,0.83,1.78,1
6.32,15.99,8.33,2.45,0.42,2.78,1
6.87,8.73,1.28,0.92,-1.02,1.52,1
3.16,-0.01,-1.46,1.3,-0.63,1.56,1
3.0,-8.58,-1.64,-0.04,-0.97,0.71,1
3.48,1.03,1.4,0.36,1.0,-0.3,1
2.3,-2.58,0.16,1.5,0.01,-1.14,1
6.17,2.56,-1.64,0.36,0.44,-2.21,1
9.26,15.0,-0.77,-0.5,0.21,-2.38,1
5.02,22.07,5.91,-1.8,-0.74,-1.35,1
7.57,23.17,3.89,-1.02,-0.23,-0.0,1
8.95,22.01,-3.13,-2.13,-0.17,-0.82,1
12.19,14.36,-2.3,-2.4,-0.57,0.19,1
6.29,11.19,-0.71,-3.8,-0.36,-0.28,1
2.72,10.58,2.88,-2.52,0.71,0.48,1
-3.74,7.06,5.34,-0.95,0.95,1.45,1
1.21,-5.71,10.05,0.63,0.36,1.96,1
6.19,-0.66,7.02,-0.34,-1.41,-1.11,1
3.98,0.52,7.9,0.74,-0.8,-0.53,1
2.18,8.16,4.0,2.11,0.37,-0.37,1
6.75,15.56,-0.5,3.05,0.56,0.33,1
7.24,18.17,-3.24,1.52,0.99,-0.34,1
8.15,22.33,0.64,2.15,1.72,1.39,1
9.52,15.74,6.28,2.52,1.09,1.6,1
7.16,17.84,8.21,2.28,0.84,2.13,1
7.08,13.08,5.23,2.31,0.59,2.26,1
8.62,3.87,-2.93,0.67,-1.0,0.56,1
-3.16,-6.17,-2.46,0.43,-0.27,1.52,1
7.32,-2.14,6.46,-0.48,0.82,-0.58,1
3.88,-2.45,0.57,0.71,-0.62,-1.34,1
4.48,-0.37,3.99,0.38,-0.69,-1.54,1
7.72,10.48,-0.39,-0.6,-0.1,-1.89,1
3.74,20.11,5.0,-2.63,0.11,-1.35,1
5.75,44.06,0.44,-0.33,-0.27,-1.17,1
10.81,16.43,-7.0,-3.05,0.12,-0.63,1
7.0,12.51,-1.85,-3.71,0.14,0.77,1
11.27,12.56,2.32,-2.97,0.78,0.41,1
8.42,9.57,4.04,-2.57,0.67,-0.47,1
0.0,5.65,5.04,-1.08,0.32,-0.06,1
0.23,-1.3,6.17,0.42,0.56,2.3,1
7.7,-1.99,5.56,0.31,-0.53,-0.52,1
-0.34,1.11,9.61,1.57,-0.01,-0.32,1
2.18,7.85,5.17,0.76,0.42,-0.22,1
4.66,13.16,3.23,1.95,0.23,-0.01,1
8.0,15.75,0.83,2.75,0.05,0.32,1
8.74,25.36,-4.13,2.19,1.26,0.28,1
7.86,18.45,7.17,2.41,1.64,2.09,1
7.99,15.11,8.71,2.42,0.85,2.15,1
13.48,9.8,4.87,3.1,-0.45,2.24,1
6.18,5.98,2.6,2.29,-0.8,1.42,1
-0.08,-2.13,-3.36,1.51,-0.42,1.33,1
5.17,-4.2,3.21,-0.03,0.21,0.29,1
6.09,-0.96,2.11,1.95,0.53,-1.2,1
4.73,-0.63,-0.46,0.54,-0.39,-1.55,1
6.64,6.1,-0.57,-0.64,-0.11,-1.91,1
8.54,16.64,-0.85,-1.6,-0.15,-2.35,1
5.77,19.1,6.88,-1.69,-0.93,-0.8,1
4.64,28.94,-0.36,-1.9,-0.54,-0.3,1
8.28,22.46,-2.48,-1.83,0.76,0.47,1
10.7,15.62,-1.13,-1.98,0.48,-0.13,1
9.12,9.05,3.01,-2.34,0.18,-0.34,1
4.38,11.17,5.96,-1.68,0.91,-0.36,1
-1.19,6.24,8.06,-0.58,0.37,1.07,1
5.85,-3.49,10.7,-0.34,-0.29,1.02,1
1.71,1.91,8.4,1.36,-0.67,-0.48,1
1.13,4.35,6.14,0.95,-0.33,-0.61,1
3.77,11.82,2.84,0.79,0.11,-0.29,1
9.41,14.41,-0.85,2.46,0.63,0.3,1
9.7,18.89,-3.17,2.76,1.05,0.18,1
6.27,20.05,2.99,1.65,1.69,1.18,1
5.18,19.42,5.51,2.49,0.97,0.99,1
9.99,13.72,6.98,2.18,0.99,2.59,1
8.73,7.7,1.43,2.15,0.2,1.96,1
3.49,-2.82,-6.2,0.71,-0.52,0.94,1
1.53,-1.52,7.6,-0.83,0.94,0.93,1
9.17,0.71,-1.88,1.04,0.41,-1.03,1
3.74,0.73,3.15,1.11,-0.22,-0.81,1
6.06,3.65,1.21,0.07,-0.14,-1.7,1
4.59,11.55,0.61,-0.88,-0.02,-2.18,1
4.55,20.94,4.01,-0.85,-0.34,-1.3,1
6.13,22.24,4.05,-1.74,-0.43,-0.13,1
8.54,14.61,0.83,-2.01,-0.02,-0.13,1
8.99,14.5,-2.04,-1.38,-0.04,-0.4,1
9.83,15.09,0.27,-1.89,0.16,-0.06,1
9.84,10.97,2.49,-1.78,0.49,0.23,1
3.46,6.23,7.27,-1.99,0.6,0.34,1
0.41,0.0,8.86,0.67,0.66,1.92,1
7.67,1.67,4.23,0.1,-0.08,0.29,1
1.8,2.63,7.85,0.75,0.28,-0.31,1
2.52,4.99,7.17,1.03,0.2,-0.09,1
7.13,10.46,4.63,1.5,0.59,0.17,1
8.82,15.41,1.91,2.26,0.19,0.27,1
8.82,17.99,0.87,2.14,0.6,0.57,1
5.42,20.26,2.89,0.75,1.48,0.92,1
4.2,17.13,7.61,2.25,1.05,0.93,1
6.97,14.45,7.02,2.86,0.75,2.51,1
8.66,12.72,0.97,1.64,-0.54,2.72,1
6.93,7.53,-3.18,-0.28,-0.46,0.32,1
-1.33,-3.61,0.89,-0.87,-0.8,0.55,1
10.27,-3.4,4.86,0.77,-0.02,0.49,1
3.48,-3.68,0.56,1.64,0.11,-0.46,1
7.15,-1.11,1.5,0.69,0.34,-1.14,1
7.92,7.48,-0.91,-0.71,0.22,-1.73,1
6.05,13.5,3.03,-2.14,0.57,-1.5,1
6.94,17.52,8.46,-1.76,-0.45,-0.62,1
10.12,15.06,2.92,-1.21,-0.04,0.17,1
8.78,15.88,-3.07,-1.43,0.12,-0.81,1
