AX,AY,AZ,GX,GY,GZ,Result
-2.65,-0.17,-3.4,0.01,0.05,-0.13,1
-2.91,-0.44,-3.4,-0.06,-0.19,-0.14,1
-3.09,-0.6,-3.09,-0.14,-0.27,-0.08,1
-3.02,-0.24,-2.44,-0.2,-0.39,0.03,1
0.0,0.0,0.0,-0.02,-0.16,-0.02,1
0.0,0.0,0.0,0.13,0.14,0.11,1
0.0,0.0,0.0,0.18,0.09,-0.08,1
0.0,0.0,0.0,-0.02,-0.07,-0.18,1
0.0,0.0,0.0,-0.09,-0.03,-0.39,1
0.0,0.0,0.0,-0.01,-0.0,-0.45,1
0.0,0.0,0.0,-0.12,0.09,-0.43,1
-3.36,-0.71,-2.42,-0.1,0.04,-0.26,1
0.0,0.0,0.0,-0.11,0.07,-0.09,1
0.0,0.0,0.0,-0.13,0.28,0.18,1
0.0,0.0,0.0,-0.22,0.06,0.23,1
0.0,0.0,0.0,-0.25,-0.06,0.03,1
0.0,0.0,0.0,-0.32,-0.14,-0.11,1
0.0,0.0,0.0,-0.36,-0.19,-0.3,1
0.0,0.0,0.0,-0.27,-0.18,-0.16,1
0.0,0.0,0.0,-0.2,-0.04,-0.1,1
0.0,0.0,0.0,-0.31,-0.06,-0.07,1
0.0,0.0,0.0,-0.41,-0.21,0.01,1
0.0,0.0,0.0,-0.21,-0.18,-0.23,1
0.0,0.0,0.0,-0.07,-0.03,-0.24,1
-1.89,-0.16,-2.71,-0.07,-0.14,-0.27,1
-1.9,-0.26,-2.91,-0.13,0.21,-0.28,1
-3.5,-0.69,-4.02,-0.23,0.47,-0.28,1
-3.3,-0.65,-3.69,-0.29,-0.2,-0.38,1
-3.27,-0.52,-3.21,-0.27,-0.12,-0.39,1
-3.22,-0.52,-3.17,-0.24,-0.26,-0.26,1
-2.94,-0.63,-3.45,-0.2,-0.16,-0.14,1
0.0,0.0,0.0,-0.09,-0.12,-0.14,1
0.0,0.0,0.0,-0.13,-0.38,-0.25,1
0.0,0.0,0.0,-0.01,-0.16,-0.33,1
0.0,0.0,0.0,-0.18,0.1,0.01,1
0.0,0.0,0.0,-0.3,-0.41,-0.09,1
0.0,0.0,0.0,-0.21,-0.21,-0.18,1
0.0,0.0,0.0,-0.21,-0.28,-0.12,1
0.0,0.0,0.0,-0.17,-0.02,-0.14,1
0.0,0.0,0.0,-0.12,0.07,-0.19,1
-1.63,-0.77,-3.34,-0.0,-0.09,-0.46,1
-1.68,-1.04,-3.32,0.04,-0.14,-0.46,1
-2.5,-0.61,-3.37,0.07,0.01,-0.48,1
-1.85,-1.41,-3.19,0.13,0.04,-0.37,1
-2.14,-0.3,-2.99,0.06,0.19,-0.06,1
0.0,0.0,0.0,-0.1,-0.1,-0.07,1
0.0,0.0,0.0,-0.1,-0.17,-0.05,1
0.0,0.0,0.0,-0.19,-0.29,0.0,1
0.0,0.0,0.0,-0.31,-0.52,0.04,1
0.0,0.0,0.0,-0.31,-0.43,0.2,1
0.0,0.0,0.0,-0.51,-0.49,0.18,1
-2.79,0.69,-3.4,-0.85,-0.05,0.14,1
-5.0,-0.5,-4.39,-0.76,1.17,0.67,1
-6.82,-0.62,-6.36,-0.82,0.85,0.84,1
-6.33,-0.18,-7.16,-0.83,0.38,0.89,1
-5.8,1.98,-7.14,-0.9,0.02,1.0,1
-6.82,4.24,-7.87,-0.67,-0.2,0.71,1
-7.06,5.57,-8.23,-0.93,-0.24,0.77,1
0.0,0.0,0.0,-0.89,0.47,0.77,1
0.0,0.0,0.0,-0.76,0.72,0.57,1
0.0,0.0,0.0,-0.67,1.38,0.47,1
-5.82,12.7,-7.72,-0.46,0.67,0.07,1
-4.62,13.21,-6.38,-0.34,0.09,-0.4,1
-3.3,11.22,-5.61,0.07,-0.1,-1.18,1
-4.54,7.37,-7.49,0.66,0.08,-2.23,1
-10.43,3.61,-6.82,0.64,0.4,-2.93,1
-16.07,-6.05,-13.55,0.36,1.67,-2.08,1
-5.24,5.31,-7.65,0.44,0.44,-0.68,1
-6.63,4.01,-7.59,0.09,-0.48,-1.01,1
-2.75,0.57,-5.7,0.05,-0.82,-1.41,1
-5.25,-4.02,-2.84,0.1,-0.69,-1.47,1
-4.49,-1.98,-5.47,0.24,-1.31,-1.27,1
1.11,-0.93,-1.78,0.17,-0.71,-0.8,1
-3.08,-3.09,-2.01,0.22,0.18,-0.41,1
-3.25,-1.05,-3.22,-0.1,-0.26,0.03,1
-2.55,-0.75,-2.93,-0.31,0.27,0.52,1
-4.41,-0.99,-4.13,-0.62,0.41,0.69,1
-4.55,-1.6,-4.64,-0.63,-0.21,0.83,1
-3.78,-0.41,-4.72,-0.46,0.14,0.91,1
-5.94,0.63,-5.37,-0.67,-0.03,0.68,1
-6.96,1.9,-5.22,-0.74,-0.14,0.64,1
-11.69,1.46,-6.49,-0.67,-0.56,0.46,1
-6.34,4.24,-3.98,-0.29,-0.54,1.17,1
-8.29,5.86,-4.03,-0.55,-0.04,0.77,1
-6.04,7.57,-4.41,-0.29,-0.63,0.83,1
-5.32,8.0,-2.06,-0.1,-0.22,0.63,1
-7.25,9.67,-1.96,-0.36,0.44,0.32,1
-6.7,11.39,-2.4,-0.46,0.41,0.05,1
-7.07,11.26,-1.54,-0.74,0.13,-0.16,1
-6.94,10.22,-0.29,-1.13,-0.15,-0.27,1
-8.24,8.56,-0.87,-0.92,-0.05,-0.5,1
-6.64,8.53,-1.2,-0.25,0.32,-0.36,1
-5.5,8.71,-2.2,-0.11,0.71,-0.72,1
-5.7,7.06,-1.92,-0.33,0.63,-0.99,1
-6.76,4.81,-2.38,-0.74,0.56,-1.34,1
-7.19,3.57,-0.75,-0.58,0.24,-1.13,1
-5.81,2.04,-1.91,-0.31,0.07,-1.36,1
-4.01,1.22,-2.65,-0.27,0.43,-1.34,1
-2.41,0.2,-3.37,-0.4,1.03,-1.62,1
-3.11,-4.76,-4.3,-0.18,1.09,-2.02,1
-1.84,-3.18,-4.19,0.25,0.18,-0.74,1
-2.46,-2.48,-4.64,-0.21,0.43,0.11,1
-3.74,-3.13,-5.55,0.59,-0.29,-0.2,1
1.75,2.45,-0.37,0.91,-0.87,-0.28,1
1.8,-1.29,-0.96,-0.14,-0.06,-0.37,1
1.18,-2.07,-2.92,0.22,0.1,-0.13,1
-0.46,-2.51,-3.07,0.38,-0.49,0.39,1
0.63,-0.39,-0.4,0.17,0.14,0.44,1
-0.67,0.56,-0.13,-1.14,2.1,0.42,1
-3.96,-1.48,-6.07,-2.28,1.81,0.52,1
-5.24,-1.32,-10.04,-1.88,0.92,0.57,1
-4.67,0.86,-9.24,-1.91,0.63,0.31,1
-2.97,3.67,-9.22,-1.43,0.31,-0.32,1
-3.95,4.51,-11.33,-1.02,0.39,-0.44,1
-3.67,4.42,-12.81,-0.45,0.02,-0.68,1
-2.82,6.91,-13.53,-0.26,0.35,-0.72,1
-3.89,6.21,-12.88,-0.58,0.14,-0.57,1
0.0,0.0,0.0,-0.89,0.24,-0.4,1
0.0,0.0,0.0,-0.53,0.0,-0.43,1
0.0,0.0,0.0,-0.59,-0.14,-0.36,1
-3.48,9.43,-11.25,-0.28,0.1,-0.34,1
-2.22,9.05,-14.13,-0.09,0.16,-0.59,1
-1.92,9.21,-12.62,-0.17,0.53,-0.85,1
-1.37,10.16,-14.2,-0.19,0.63,-0.77,1
-1.46,10.6,-13.71,-0.22,0.25,-0.37,1
-2.99,10.38,-13.91,-0.02,0.19,-0.57,1
-2.59,9.57,-13.9,0.04,0.29,-0.76,1
-2.87,10.95,-14.3,-0.16,0.33,-0.7,1
-3.72,10.6,-13.59,-0.25,0.22,-0.61,1
-3.37,10.57,-13.19,-0.23,0.07,-0.61,1
0.0,0.0,0.0,-0.16,0.25,-0.86,1
0.0,0.0,0.0,-0.23,0.28,-0.82,1
0.0,0.0,0.0,-0.15,0.33,-0.7,1
0.0,0.0,0.0,-0.15,0.56,-0.72,1
0.0,0.0,0.0,-0.1,0.53,-0.7,1
0.0,0.0,0.0,-0.11,0.45,-0.69,1
0.0,0.0,0.0,-0.12,0.37,-0.69,1
0.0,0.0,0.0,-0.08,0.21,-0.56,1
0.0,0.0,0.0,-0.01,0.19,-0.56,1
0.0,0.0,0.0,-0.17,0.42,-0.45,1
0.0,0.0,0.0,-0.05,0.2,-0.62,1
0.0,0.0,0.0,-0.03,-0.28,-0.68,1
-5.65,7.59,-11.8,0.02,-0.41,-0.76,1
-4.22,5.25,-12.33,0.53,-0.06,-0.67,1
-5.54,5.68,-11.14,0.76,-0.89,-0.93,1
-3.54,5.84,-10.74,1.02,-0.78,-1.25,1
-6.46,3.6,-9.59,0.8,-1.01,-1.37,1
-3.98,2.66,-7.37,0.86,-0.77,-1.44,1
-4.02,1.98,-5.3,0.3,-0.26,-1.28,1
-2.79,0.46,-5.14,0.37,-0.46,-1.27,1
-2.88,-2.55,-4.3,-0.09,-0.28,-1.54,1
-1.49,-4.19,-2.73,0.46,-0.41,-0.38,1
-1.08,-0.85,-2.15,-0.26,0.03,0.1,1
-1.15,0.44,-2.86,-0.08,0.27,0.17,1
-2.89,-1.57,-5.04,-0.49,0.61,-0.01,1
-1.05,-0.62,-4.67,-0.09,0.07,-0.29,1
-1.86,-1.36,-4.48,-0.04,0.03,-0.28,1
-1.88,-0.64,-4.68,-0.16,0.12,-0.19,1
-1.17,-0.54,-4.54,-0.11,-0.1,-0.32,1
-1.6,-1.53,-4.61,-0.14,0.05,-0.36,1
0.0,0.0,0.0,0.1,0.29,-0.44,1
0.0,0.0,0.0,-0.05,-0.26,-0.24,1
0.0,0.0,0.0,0.01,0.17,-0.03,1
0.0,0.0,0.0,-0.03,0.17,0.01,1
0.0,0.0,0.0,-0.03,-0.07,0.0,1
0.0,0.0,0.0,-0.05,-0.13,-0.04,1
0.0,0.0,0.0,-0.11,-0.07,-0.11,1
0.0,0.0,0.0,-0.04,-0.06,-0.21,1
0.0,0.0,0.0,-0.05,-0.14,-0.25,1
0.0,0.0,0.0,0.0,-0.0,-0.28,1
0.0,0.0,0.0,-0.01,-0.09,-0.28,1
0.0,0.0,0.0,-0.06,-0.07,-0.29,1
0.0,0.0,0.0,-0.1,-0.05,-0.29,1
0.0,0.0,0.0,-0.12,-0.08,-0.25,1
0.0,0.0,0.0,-0.15,-0.08,-0.16,1
0.0,0.0,0.0,-0.3,-0.16,-0.24,1
0.0,0.0,0.0,-0.08,-0.03,-0.23,1
0.0,0.0,0.0,-0.16,-0.19,-0.16,1
0.0,0.0,0.0,-0.08,-0.17,-0.17,1
0.0,0.0,0.0,-0.04,0.07,-0.04,1
0.0,0.0,0.0,-0.1,-0.01,-0.03,1
0.0,0.0,0.0,-0.13,-0.11,-0.08,1
0.0,0.0,0.0,-0.02,-0.13,-0.28,1
0.0,0.0,0.0,0.1,0.13,-0.34,1
0.0,0.0,0.0,-0.13,-0.09,-0.12,1
0.0,0.0,0.0,-0.04,-0.04,-0.32,1
0.0,0.0,0.0,0.04,0.01,-0.53,1
0.0,0.0,0.0,0.01,-0.03,-0.51,1
0.0,0.0,0.0,-0.02,-0.15,-0.45,1
-1.98,-1.61,-4.31,-0.09,-0.11,-0.28,1
-1.58,0.05,-3.95,0.03,0.28,-0.24,1
0.0,0.0,0.0,-0.24,-0.61,-0.07,1
0.0,0.0,0.0,-0.12,-0.35,-0.02,1
-1.41,-1.62,-4.78,-0.24,-0.08,0.24,1
-0.84,-1.19,-4.97,-0.14,-0.27,0.33,1
-0.52,-1.58,-4.98,-0.18,-0.34,0.26,1
-0.99,-0.09,-4.14,-0.3,-0.24,0.12,1
0.0,0.0,0.0,-0.13,-0.33,-0.25,1
0.0,0.0,0.0,-0.0,-0.06,-0.26,1
0.0,0.0,0.0,0.16,0.04,-0.52,1
0.0,0.0,0.0,0.12,0.6,-0.33,1
0.0,0.0,0.0,0.2,0.45,-0.24,1
-0.93,0.28,-4.21,0.19,-0.1,-0.43,1
-1.9,-0.19,-4.0,0.01,0.12,-0.55,1
-1.22,-2.14,-3.76,-0.07,0.21,-0.48,1
-2.25,-4.3,-3.51,0.04,-0.1,-0.67,1
-1.07,0.06,-2.91,0.06,0.31,-0.36,1
-0.46,-1.08,-3.26,0.26,0.02,-0.41,1
-0.74,-1.39,-3.55,0.11,-0.05,-0.26,1
-0.93,-0.58,-3.67,0.01,0.01,-0.01,1
-0.87,-1.77,-4.73,-0.16,-0.2,0.09,1
0.0,0.0,0.0,-0.32,-0.31,0.22,1
0.0,0.0,0.0,-0.41,-0.5,0.07,1
0.0,0.0,0.0,-0.38,-0.42,0.05,1
-0.78,-1.67,-3.72,-0.17,-0.4,0.11,1
-0.65,-1.99,-3.88,-0.32,0.13,0.02,1
-2.07,0.81,-2.99,-0.3,0.26,-0.07,1
-1.59,-0.56,-3.41,-0.18,-0.63,-0.22,1
-0.15,-0.8,-3.66,0.1,0.28,-0.1,1
-1.48,-0.79,-3.53,-0.01,0.3,-0.06,1
-1.31,-0.81,-3.49,-0.03,0.13,-0.28,1
-1.76,-0.98,-3.48,0.15,0.16,-0.38,1
-1.3,-0.88,-3.7,0.13,0.3,-0.39,1
-1.61,-0.71,-3.85,0.11,0.3,-0.3,1
0.0,0.0,0.0,0.02,0.25,-0.32,1
0.0,0.0,0.0,0.01,0.17,-0.57,1
0.0,0.0,0.0,-0.17,0.17,-0.26,1
0.0,0.0,0.0,-0.11,-0.1,-0.34,1
0.0,0.0,0.0,-0.18,0.22,-0.06,1
0.0,0.0,0.0,-0.2,-0.08,-0.14,1
0.0,0.0,0.0,-0.12,-0.04,-0.22,1
0.0,0.0,0.0,-0.13,0.07,-0.08,1
0.0,0.0,0.0,-0.12,-0.03,-0.12,1
0.0,0.0,0.0,-0.1,0.01,-0.1,1
0.0,0.0,0.0,-0.04,-0.0,-0.06,1
0.0,0.0,0.0,0.06,0.39,-0.01,1
0.0,0.0,0.0,0.06,0.23,-0.1,1
0.0,0.0,0.0,0.15,0.35,-0.37,1
0.0,0.0,0.0,0.13,0.46,-0.46,1
0.0,0.0,0.0,0.07,0.51,-0.41,1
0.0,0.0,0.0,0.15,0.55,-0.49,1
0.0,0.0,0.0,0.18,0.58,-0.51,1
0.0,0.0,0.0,0.2,0.63,-0.46,1
0.0,0.0,0.0,0.18,0.7,-0.32,1
0.0,0.0,0.0,0.1,0.75,-0.34,1
0.0,0.0,0.0,0.23,0.37,-0.32,1
0.58,-1.05,-4.09,0.34,1.31,-0.05,1
-0.71,-0.93,-4.12,0.29,0.78,-0.17,1
0.24,-0.78,-3.91,0.31,0.5,-0.41,1
-0.22,-1.06,-4.07,0.22,0.59,-0.56,1
0.0,0.0,0.0,0.06,0.48,-0.61,1
-1.05,-0.49,-3.59,0.01,0.58,-0.55,1
-1.42,-0.64,-3.48,-0.07,0.62,-0.41,1
-2.46,-0.57,-2.83,-0.12,0.47,-0.25,1
-2.12,-0.8,-2.62,-0.04,0.6,0.04,1
-2.87,-1.4,-2.8,-0.0,-0.18,0.23,1
-2.24,-1.0,-2.79,0.07,-0.73,0.38,1
0.0,0.0,0.0,0.08,-0.95,0.4,1
0.0,0.0,0.0,-0.17,-0.24,0.6,1
0.0,0.0,0.0,-0.07,-0.47,0.5,1
-1.5,-0.4,-2.24,-0.1,-0.22,0.21,1
0.0,0.0,0.0,-0.12,0.63,-0.19,1
0.0,0.0,0.0,0.08,0.5,-0.46,1
0.0,0.0,0.0,0.04,0.71,-0.78,1
0.0,0.0,0.0,-0.21,1.81,-0.97,1
-1.4,-1.73,-4.56,0.3,1.06,-0.88,1
-1.64,-3.39,-4.46,0.36,1.08,-0.67,1
-2.27,-0.78,-5.05,0.21,1.63,-0.37,1
-2.79,-1.15,-5.11,0.18,0.58,-0.23,1
0.06,-0.38,-4.13,0.19,0.81,-0.11,1
-1.03,-0.65,-4.01,0.08,0.46,-0.17,1
-0.59,-0.59,-3.25,0.05,0.26,-0.39,1
-0.12,-0.74,-3.67,0.01,0.26,-0.43,1
-0.33,-0.63,-3.22,0.03,0.55,-0.36,1
0.0,0.0,0.0,-0.07,0.37,-0.46,1
0.0,0.0,0.0,-0.11,0.27,-0.56,1
-1.94,-0.9,-3.5,-0.05,0.15,-0.39,1
-1.81,-1.0,-3.29,-0.09,0.18,-0.15,1
-1.65,-0.67,-3.12,-0.09,-0.03,-0.0,1
0.0,0.0,0.0,-0.13,-0.19,-0.05,1
0.0,0.0,0.0,-0.11,-0.32,-0.14,1
0.0,0.0,0.0,-0.18,-0.08,-0.1,1
0.0,0.0,0.0,-0.13,-0.36,-0.04,1
-0.03,-0.91,-4.69,-0.09,-0.36,-0.0,1
0.21,-2.6,-5.21,0.04,-0.52,-0.06,1
-0.68,-0.2,-4.71,-0.18,-0.3,0.09,1
0.0,0.0,0.0,-0.07,-0.57,-0.11,1
0.0,0.0,0.0,-0.02,-0.41,-0.13,1
0.0,0.0,0.0,-0.04,-0.44,-0.06,1
0.0,0.0,0.0,-0.24,-0.44,-0.07,1
0.0,0.0,0.0,-0.23,0.12,-0.13,1
0.0,0.0,0.0,-0.28,-0.78,-0.13,1
0.0,0.0,0.0,-0.17,0.12,-0.04,1
-3.27,-1.4,-4.04,-0.28,-0.04,-0.17,1
0.25,-1.06,-3.22,0.18,-0.18,-0.11,1
-0.8,-1.64,-3.53,0.02,0.04,-0.31,1
-1.04,-0.44,-3.59,-0.09,0.24,-0.17,1
-0.35,1.2,-3.12,0.08,0.08,-0.41,1
-1.76,-0.02,-3.37,0.15,-0.05,-0.34,1
-1.6,-0.72,-2.68,-0.02,-0.0,-0.16,1
-1.35,-1.22,-2.54,-0.12,-0.1,-0.14,1
0.0,0.0,0.0,-0.14,0.04,-0.06,1
-1.89,-2.55,-3.99,-0.05,-0.13,-0.36,1
0.0,0.0,0.0,-0.01,0.05,-0.39,1
0.0,0.0,0.0,0.45,-0.59,-0.26,1
-0.92,-1.86,-4.36,0.04,-0.15,-0.29,1
-1.45,-0.67,-4.54,-0.05,0.37,0.01,1
-2.59,-0.53,-4.47,-0.16,-0.0,0.05,1
-3.3,-1.75,-4.51,0.06,-0.91,-0.32,1
0.04,-0.98,-2.46,0.12,-0.61,-0.12,1
-1.55,-0.11,-1.89,-0.18,-0.6,0.02,1
-1.07,-0.5,-1.74,-0.11,-0.39,-0.17,1
-0.38,-2.73,-1.44,0.02,-0.07,-0.45,1
-1.9,-0.15,-2.07,0.02,-0.02,-0.11,1
-1.19,-1.31,-2.51,0.09,-0.1,0.08,1
-1.26,-1.03,-3.3,0.06,0.25,0.1,1
0.0,0.0,0.0,-0.03,0.54,0.02,1
-3.15,-1.71,-3.79,-0.48,0.54,-0.04,1
0.15,0.06,-2.46,-0.23,0.14,0.03,1
-1.13,-0.73,-3.47,-0.37,0.41,-0.14,1
-1.47,1.55,-2.74,-0.25,-0.11,-0.25,1
-1.48,-0.86,-3.14,-0.15,-0.04,-0.29,1
-1.39,-1.09,-3.25,-0.1,-0.02,-0.2,1
-1.72,-0.99,-3.41,-0.16,-0.13,-0.18,1
0.0,0.0,0.0,-0.16,-0.05,-0.14,1
0.0,0.0,0.0,-0.07,-0.01,-0.19,1
0.0,0.0,0.0,-0.07,0.04,-0.35,1
0.0,0.0,0.0,-0.14,0.11,-0.17,1
0.0,0.0,0.0,-0.26,-0.04,-0.23,1
0.0,0.0,0.0,-0.05,0.3,-0.2,1
0.0,0.0,0.0,-0.06,0.22,-0.16,1
0.0,0.0,0.0,0.0,0.25,-0.23,1
0.0,0.0,0.0,-0.02,0.26,-0.21,1
0.0,0.0,0.0,-0.0,0.24,-0.24,1
0.0,0.0,0.0,-0.04,0.1,-0.28,1
0.0,0.0,0.0,0.04,-0.01,-0.36,1
0.0,0.0,0.0,-0.03,0.19,-0.26,1
0.0,0.0,0.0,-0.01,-0.14,-0.35,1
0.0,0.0,0.0,0.01,-0.13,-0.34,1
0.0,0.0,0.0,0.02,-0.05,-0.19,1
0.0,0.0,0.0,0.02,-0.08,-0.16,1
0.0,0.0,0.0,-0.03,-0.12,-0.25,1
0.0,0.0,0.0,-0.0,-0.01,-0.29,1
0.0,0.0,0.0,-0.21,-0.37,-0.12,1
0.0,0.0,0.0,-0.12,0.02,-0.0,1
-1.26,-0.92,-4.14,-0.16,-0.08,-0.02,1
-0.17,-0.92,-4.15,-0.1,-0.12,-0.03,1
-0.58,-0.81,-4.16,-0.04,0.02,-0.09,1
-0.78,-1.01,-4.07,-0.14,-0.22,-0.22,1
0.0,0.0,0.0,-0.14,-0.27,-0.32,1
0.0,0.0,0.0,0.02,-0.07,-0.27,1
0.0,0.0,0.0,-0.07,0.0,-0.38,1
0.0,0.0,0.0,0.08,-0.27,-0.31,1
0.0,0.0,0.0,-0.07,-0.08,-0.25,1
0.0,0.0,0.0,-0.14,-0.03,-0.21,1
0.0,0.0,0.0,-0.13,-0.08,-0.26,1
0.0,0.0,0.0,-0.13,-0.08,-0.2,1
0.0,0.0,0.0,-0.1,-0.29,-0.27,1
0.0,0.0,0.0,-0.12,0.07,-0.12,1
0.0,0.0,0.0,0.0,-0.2,-0.21,1
0.0,0.0,0.0,0.02,-0.17,-0.15,1
0.0,0.0,0.0,0.06,0.04,0.03,1
0.0,0.0,0.0,0.04,-0.2,-0.11,1
0.0,0.0,0.0,0.12,-0.04,-0.11,1
0.0,0.0,0.0,-0.09,-0.21,-0.15,1
0.0,0.0,0.0,-0.12,-0.18,-0.26,1
0.0,0.0,0.0,-0.16,-0.13,-0.23,1
0.0,0.0,0.0,-0.14,-0.17,-0.33,1
0.0,0.0,0.0,-0.1,-0.1,-0.36,1
0.0,0.0,0.0,0.0,-0.12,-0.37,1
0.0,0.0,0.0,0.03,0.39,-0.16,1
0.0,0.0,0.0,-0.16,-0.18,-0.17,1
0.0,0.0,0.0,-0.11,-0.1,-0.2,1
0.0,0.0,0.0,-0.09,-0.08,0.03,1
0.0,0.0,0.0,-0.1,0.17,0.07,1
0.0,0.0,0.0,-0.11,-0.14,-0.05,1
0.0,0.0,0.0,-0.14,-0.08,-0.14,1
-1.5,-1.33,-4.28,-0.07,-0.27,-0.24,1
-1.49,-0.74,-4.42,-0.08,-0.46,-0.31,1
0.0,0.0,0.0,-0.2,-0.44,-0.41,1
0.0,0.0,0.0,-0.04,-0.43,-0.39,1
0.0,0.0,0.0,-0.11,-0.38,-0.26,1
0.0,0.0,0.0,-0.18,-0.41,-0.26,1
0.0,0.0,0.0,-0.16,-0.53,-0.2,1
0.0,0.0,0.0,0.02,-0.45,-0.23,1
0.0,0.0,0.0,-0.16,-0.13,0.05,1
0.0,0.0,0.0,-0.05,-0.38,-0.1,1
0.0,0.0,0.0,-0.03,-0.31,0.01,1
0.0,0.0,0.0,0.03,-0.15,-0.08,1
-0.92,0.2,-4.74,-0.23,-0.18,-0.09,1
0.0,0.0,0.0,-0.09,-0.32,-0.18,1
0.0,0.0,0.0,-0.03,-0.07,-0.31,1
0.0,0.0,0.0,-0.07,-0.2,-0.34,1
0.0,0.0,0.0,-0.07,-0.17,-0.35,1
0.0,0.0,0.0,-0.02,-0.07,-0.37,1
-1.16,-2.06,-4.03,0.12,0.1,-0.5,1
0.0,0.0,0.0,-0.2,-0.26,-0.25,1
0.0,0.0,0.0,-0.05,-0.06,-0.19,1
-0.58,-0.97,-4.19,-0.12,0.09,-0.13,1
0.67,-0.56,-4.24,0.09,0.03,-0.15,1
0.17,-0.8,-4.15,0.04,0.1,-0.14,1
-0.27,-1.1,-4.13,-0.04,0.21,-0.1,1
0.0,0.0,0.0,-0.1,0.03,-0.18,1
0.0,0.0,0.0,-0.06,0.03,-0.22,1
-1.24,-1.17,-3.56,-0.02,0.13,-0.07,1
0.0,0.0,0.0,0.05,0.33,-0.12,1
0.0,0.0,0.0,-0.07,0.42,-0.21,1
0.0,0.0,0.0,-0.03,0.19,-0.22,1
0.0,0.0,0.0,-0.16,0.08,-0.22,1
0.0,0.0,0.0,0.0,0.22,-0.34,1
0.0,0.0,0.0,-0.09,-0.06,-0.28,1
0.0,0.0,0.0,-0.07,-0.06,-0.35,1
0.0,0.0,0.0,0.05,0.01,-0.15,1
0.0,0.0,0.0,0.05,0.1,0.07,1
0.0,0.0,0.0,0.18,0.06,-0.15,1
0.0,0.0,0.0,0.13,0.22,-0.17,1
0.0,0.0,0.0,0.07,0.09,-0.21,1
0.0,0.0,0.0,-0.06,0.16,-0.29,1
0.0,0.0,0.0,-0.06,0.05,-0.31,1
0.0,0.0,0.0,-0.02,0.16,-0.27,1
0.0,0.0,0.0,-0.09,0.49,-0.26,1
0.0,0.0,0.0,0.26,1.46,-0.01,1
-2.9,-0.42,-3.95,0.1,0.43,0.16,1
-1.14,-1.46,-3.64,0.05,0.05,-0.04,1
-1.92,-0.24,-4.04,0.13,0.55,-0.12,1
-1.93,-0.24,-4.06,0.05,0.31,-0.26,1
-2.2,-0.87,-4.08,-0.05,0.18,-0.24,1
-2.19,-0.15,-4.04,-0.1,0.08,-0.23,1
0.0,0.0,0.0,-0.06,0.13,-0.48,1
0.0,0.0,0.0,-0.04,0.09,-0.5,1
0.0,0.0,0.0,-0.11,-0.02,-0.33,1
0.0,0.0,0.0,-0.13,-0.09,-0.29,1
0.0,0.0,0.0,-0.16,-0.27,-0.35,1
0.0,0.0,0.0,-0.21,-0.33,-0.24,1
0.0,0.0,0.0,-0.2,-0.43,-0.09,1
0.0,0.0,0.0,-0.24,-0.4,-0.01,1
-0.24,-1.6,-5.08,-0.05,-0.1,0.01,1
-0.78,-1.47,-5.04,-0.14,-0.09,-0.01,1
-0.4,-0.66,-4.75,-0.21,-0.11,-0.01,1
0.0,0.0,0.0,0.05,0.08,-0.2,1
0.0,0.0,0.0,-0.03,0.12,-0.21,1
0.0,0.0,0.0,0.05,0.09,-0.35,1
0.0,0.0,0.0,0.15,0.15,-0.53,1
-2.12,-1.23,-4.89,0.13,0.28,-0.41,1
-1.78,-0.54,-4.82,0.15,0.32,-0.25,1
0.0,0.0,0.0,0.07,0.35,-0.26,1
0.0,0.0,0.0,0.12,0.73,-0.32,1
0.0,0.0,0.0,0.1,0.16,-0.21,1
0.0,0.0,0.0,0.04,0.44,-0.17,1
0.0,0.0,0.0,-0.03,0.34,-0.16,1
0.0,0.0,0.0,-0.04,0.32,-0.21,1
0.0,0.0,0.0,-0.03,0.44,-0.16,1
0.0,0.0,0.0,0.05,0.25,-0.26,1
0.0,0.0,0.0,0.04,0.19,-0.33,1
0.0,0.0,0.0,0.04,0.28,-0.31,1
0.0,0.0,0.0,0.13,0.12,-0.28,1
0.0,0.0,0.0,-0.06,0.19,-0.35,1
0.0,0.0,0.0,-0.12,0.06,-0.33,1
0.0,0.0,0.0,-0.22,0.0,-0.14,1
0.0,0.0,0.0,-0.15,-0.08,-0.11,1
0.0,0.0,0.0,-0.2,-0.15,-0.1,1
0.0,0.0,0.0,-0.13,-0.01,-0.03,1
0.0,0.0,0.0,-0.07,-0.2,-0.09,1
0.0,0.0,0.0,-0.1,-0.2,-0.16,1
0.0,0.0,0.0,-0.02,-0.22,-0.1,1
0.0,0.0,0.0,-0.0,-0.29,-0.0,1
0.0,0.0,0.0,0.13,-0.21,0.15,1
0.0,0.0,0.0,0.19,0.21,0.15,1
0.0,0.0,0.0,0.03,0.39,-0.07,1
0.0,0.0,0.0,0.03,0.02,-0.49,1
0.0,0.0,0.0,0.09,0.16,-0.76,1
0.0,0.0,0.0,0.11,0.38,-0.84,1
0.0,0.0,0.0,0.2,0.3,-0.53,1
-2.13,-2.77,-4.67,0.22,0.4,-0.5,1
0.0,0.0,0.0,-0.14,0.7,-0.21,1
-2.36,-0.17,-3.48,-0.21,0.05,-0.17,1
0.0,0.0,0.0,-0.19,-0.11,-0.05,1
0.0,0.0,0.0,-0.27,-0.33,-0.04,1
0.0,0.0,0.0,-0.29,-0.38,-0.02,1
-1.32,-1.62,-3.94,-0.27,-0.35,0.13,1
0.0,0.0,0.0,-0.34,-0.46,0.0,1
0.0,0.0,0.0,-0.21,-0.49,-0.15,1
0.0,0.0,0.0,-0.1,-0.52,-0.27,1
0.0,0.0,0.0,-0.23,-0.5,-0.35,1
0.0,0.0,0.0,-0.15,-0.4,-0.4,1
0.0,0.0,0.0,-0.18,-0.23,-0.4,1
0.0,0.0,0.0,-0.07,-0.42,-0.54,1
-1.26,-0.56,-4.12,-0.12,0.37,0.02,1
-2.66,-1.01,-4.77,-0.31,-0.26,0.0,1
-1.0,-0.63,-4.64,-0.09,-0.51,-0.19,1
0.5,-2.84,-5.41,-0.03,-0.11,0.17,1
-1.26,-1.16,-5.34,-0.2,0.01,0.14,1
-0.53,-0.26,-5.24,-0.01,-0.53,-0.09,1
-0.39,-0.56,-5.18,0.04,-0.09,-0.29,1
-1.03,-0.93,-5.47,-0.07,0.18,-0.36,1
-1.39,-0.89,-5.01,-0.04,0.14,-0.39,1
0.0,0.0,0.0,0.05,0.23,-0.39,1
0.0,0.0,0.0,0.16,0.5,-0.45,1
0.0,0.0,0.0,0.3,0.71,-0.59,1
0.0,0.0,0.0,0.11,0.44,-0.34,1
-1.11,-0.21,-4.79,0.11,0.38,-0.19,1
-1.72,-0.83,-4.82,-0.01,0.47,-0.29,1
-1.5,-1.4,-4.48,-0.04,0.39,-0.26,1
-1.21,-0.26,-3.88,-0.17,0.51,-0.03,1
-1.58,-1.58,-3.44,-0.01,0.3,-0.01,1
0.0,0.0,0.0,-0.03,0.06,0.01,1
0.0,0.0,0.0,0.1,0.23,-0.15,1
0.0,0.0,0.0,0.14,0.08,-0.16,1
0.0,0.0,0.0,-0.0,0.09,-0.3,1
0.0,0.0,0.0,-0.08,0.14,-0.4,1
0.0,0.0,0.0,-0.24,-0.08,-0.3,1
-1.66,-3.46,-4.41,0.03,-0.27,-0.36,1
0.0,0.0,0.0,-0.16,0.01,0.05,1
0.0,0.0,0.0,0.08,-0.1,-0.18,1
-1.61,-1.14,-5.09,0.04,0.12,-0.13,1
-1.46,-0.66,-5.16,-0.15,-0.02,0.19,1
0.0,0.0,0.0,0.01,-0.21,-0.01,1
0.0,0.0,0.0,-0.0,0.34,0.04,1
0.0,0.0,0.0,-0.09,-0.12,-0.15,1
0.0,0.0,0.0,-0.05,-0.01,-0.59,1
0.0,0.0,0.0,0.07,0.01,-0.74,1
0.0,0.0,0.0,0.09,0.29,-0.6,1
-2.43,-1.71,-4.4,0.12,0.25,-0.48,1
-2.01,-2.19,-4.86,0.19,0.33,-0.34,1
0.0,0.0,0.0,-0.03,0.28,-0.11,1
0.0,0.0,0.0,-0.09,-0.26,-0.14,1
0.0,0.0,0.0,-0.15,-0.09,-0.13,1
0.0,0.0,0.0,-0.28,-0.3,-0.01,1
0.0,0.0,0.0,-0.33,-0.37,0.03,1
0.0,0.0,0.0,-0.25,-0.35,-0.03,1
0.0,0.0,0.0,0.01,-0.28,-0.06,1
0.0,0.0,0.0,-0.08,-0.12,-0.03,1
0.0,0.0,0.0,-0.09,-0.1,-0.12,1
0.0,0.0,0.0,0.14,0.0,-0.14,1
0.0,0.0,0.0,-0.02,0.19,-0.18,1
0.0,0.0,0.0,-0.02,0.24,-0.13,1
-2.64,-0.35,-4.18,-0.06,0.3,-0.26,1
-2.95,-0.22,-3.57,-0.06,0.07,-0.48,1
-1.56,-1.73,-4.38,0.07,0.28,-0.5,1
-2.39,-3.82,-5.0,-0.08,0.19,-0.29,1
0.0,0.0,0.0,-0.09,0.28,-0.18,1
-1.24,-0.3,-4.91,-0.04,0.28,-0.26,1
-1.65,-1.16,-4.98,-0.07,0.24,-0.49,1
0.0,0.0,0.0,-0.04,0.12,-0.43,1
0.0,0.0,0.0,-0.02,0.04,-0.22,1
0.0,0.0,0.0,0.06,0.02,-0.18,1
0.0,0.0,0.0,0.19,0.42,-0.19,1
0.0,0.0,0.0,-0.13,0.13,-0.07,1
0.0,0.0,0.0,-0.03,-0.05,-0.22,1
0.0,0.0,0.0,0.0,0.13,-0.28,1
0.0,0.0,0.0,-0.05,0.03,-0.23,1
0.0,0.0,0.0,-0.03,-0.1,-0.34,1
0.0,0.0,0.0,-0.01,-0.06,-0.36,1
0.0,0.0,0.0,-0.0,0.0,-0.3,1
0.0,0.0,0.0,-0.07,-0.07,-0.28,1
0.0,0.0,0.0,-0.14,0.1,-0.19,1
0.0,0.0,0.0,-0.17,-0.18,-0.15,1
0.0,0.0,0.0,0.02,0.02,-0.16,1
0.0,0.0,0.0,-0.07,0.02,-0.1,1
0.0,0.0,0.0,-0.04,0.01,-0.02,1
0.0,0.0,0.0,-0.01,0.04,-0.03,1
0.0,0.0,0.0,-0.12,0.06,-0.03,1
0.0,0.0,0.0,-0.07,-0.2,-0.1,1
0.0,0.0,0.0,-0.28,-0.04,-0.02,1
0.0,0.0,0.0,-0.23,-0.04,-0.2,1
0.0,0.0,0.0,-0.11,-0.19,-0.37,1
0.0,0.0,0.0,-0.08,-0.3,-0.39,1
0.0,0.0,0.0,-0.07,-0.42,-0.49,1
0.0,0.0,0.0,-0.28,-0.35,-0.17,1
0.0,0.0,0.0,-0.08,-0.8,-0.29,1
-1.53,-1.66,-5.22,-0.11,-0.27,-0.23,1
-1.19,-1.15,-5.35,-0.18,-0.04,0.09,1
-1.05,-2.16,-6.07,-0.19,-0.25,-0.2,1
-0.79,0.12,-5.85,-0.16,0.12,-0.12,1
-0.58,-0.26,-5.79,-0.13,-0.12,-0.15,1
0.0,0.0,0.0,-0.01,-0.09,-0.62,1
0.0,0.0,0.0,-0.06,-0.12,-0.67,1
0.0,0.0,0.0,-0.1,-0.17,-0.5,1
0.0,0.0,0.0,-0.09,-0.26,-0.49,1
0.0,0.0,0.0,-0.07,-0.24,-0.33,1
0.0,0.0,0.0,-0.0,-0.06,-0.05,1
0.0,0.0,0.0,-0.17,-0.62,-0.05,1
0.0,0.0,0.0,-0.02,-0.37,-0.22,1
0.0,0.0,0.0,-0.12,-0.38,-0.15,1
-1.14,-0.96,-5.28,-0.15,-0.61,-0.17,1
-1.34,-0.54,-5.22,-0.24,-0.74,-0.19,1
-1.17,-0.83,-5.2,-0.25,-0.8,-0.29,1
0.0,0.0,0.0,-0.23,-0.84,-0.24,1
0.0,0.0,0.0,-0.32,-0.8,-0.09,1
0.0,0.0,0.0,-0.33,-0.8,-0.01,1
0.0,0.0,0.0,-0.3,-0.87,-0.03,1
0.0,0.0,0.0,-0.35,-0.82,-0.28,1
0.0,0.0,0.0,-0.27,-0.67,-0.4,1
0.0,0.0,0.0,-0.25,-0.56,-0.31,1
0.0,0.0,0.0,-0.18,-0.63,-0.31,1
0.0,0.0,0.0,-0.24,-0.18,-0.26,1
0.0,0.0,0.0,-0.13,-0.22,-0.31,1
0.0,0.0,0.0,-0.02,0.18,-0.31,1
0.0,0.0,0.0,-0.03,-0.07,-0.1,1
0.0,0.0,0.0,-0.05,0.16,-0.11,1
0.0,0.0,0.0,-0.0,0.05,-0.01,1
0.0,0.0,0.0,0.01,0.1,0.06,1
0.0,0.0,0.0,0.03,0.21,-0.06,1
0.0,0.0,0.0,-0.1,0.01,-0.12,1
0.0,0.0,0.0,-0.04,-0.02,-0.36,1
0.0,0.0,0.0,0.07,0.08,-0.51,1
0.0,0.0,0.0,0.07,0.11,-0.48,1
0.0,0.0,0.0,0.0,0.03,-0.4,1
0.0,0.0,0.0,-0.03,0.05,-0.34,1
0.0,0.0,0.0,-0.05,0.14,-0.3,1
0.0,0.0,0.0,0.01,0.26,-0.21,1
0.0,0.0,0.0,0.01,0.32,-0.18,1
0.0,0.0,0.0,-0.11,-0.13,-0.18,1
0.0,0.0,0.0,-0.15,0.26,-0.18,1
0.0,0.0,0.0,-0.05,0.06,-0.12,1
0.0,0.0,0.0,-0.07,0.08,-0.21,1
0.0,0.0,0.0,-0.02,0.11,-0.23,1
0.0,0.0,0.0,-0.05,0.06,-0.29,1
0.0,0.0,0.0,-0.06,0.1,-0.3,1
0.0,0.0,0.0,-0.07,0.15,-0.21,1
0.0,0.0,0.0,0.23,-0.27,-0.13,1
0.0,0.0,0.0,0.02,0.21,-0.25,1
0.0,0.0,0.0,-0.05,0.44,-0.32,1
0.0,0.0,0.0,-0.04,0.33,-0.11,1
-2.6,-0.7,-4.39,-0.0,0.45,-0.2,1
-2.39,-0.8,-4.36,-0.02,0.32,-0.15,1
-1.84,-1.84,-4.98,0.02,0.1,-0.19,1
-1.63,-1.56,-5.31,-0.04,0.07,-0.01,1
0.0,0.0,0.0,-0.1,0.13,0.02,1
0.0,0.0,0.0,-0.01,0.12,-0.22,1
-0.61,-0.49,-5.7,0.08,0.28,-0.4,1
0.0,0.0,0.0,0.0,0.07,-0.5,1
0.0,0.0,0.0,0.13,0.25,-0.71,1
0.0,0.0,0.0,0.01,0.2,-0.57,1
-1.59,-1.55,-6.15,0.03,0.29,-0.42,1
-1.91,-0.94,-5.81,-0.07,0.31,-0.26,1
0.0,0.0,0.0,-0.13,0.0,-0.22,1
0.0,0.0,0.0,-0.0,-0.14,-0.13,1
0.0,0.0,0.0,0.15,-0.06,-0.34,1
0.0,0.0,0.0,-0.34,-0.12,-0.04,1
0.0,0.0,0.0,-0.14,-0.57,-0.11,1
-0.55,-1.02,-5.15,-0.08,-0.09,-0.03,1
-0.34,-1.14,-5.36,-0.08,-0.47,-0.05,1
0.5,-0.81,-5.49,0.16,-0.03,0.11,1
0.42,-1.17,-4.86,0.14,0.31,-0.01,1
0.0,0.0,0.0,-0.05,0.23,-0.14,1
-1.38,-1.09,-4.25,0.05,0.2,-0.36,1
-2.65,-1.3,-4.43,0.16,0.42,-0.21,1
-2.36,-0.58,-4.06,0.13,0.31,-0.22,1
-2.15,-0.58,-4.53,0.02,0.34,-0.35,1
0.0,0.0,0.0,-0.05,0.28,-0.36,1
0.0,0.0,0.0,-0.37,0.0,-0.42,1
0.0,0.0,0.0,-0.08,0.34,-0.3,1
0.0,0.0,0.0,-0.07,0.19,-0.25,1
0.0,0.0,0.0,0.11,0.05,-0.55,1
-1.13,-1.15,-6.16,-0.0,0.18,-0.37,1
-0.63,-0.94,-5.9,-0.13,-0.02,-0.25,1
0.0,0.0,0.0,-0.08,0.09,-0.26,1
0.0,0.0,0.0,-0.04,-0.0,-0.35,1
0.0,0.0,0.0,-0.04,0.31,-0.32,1
0.0,0.0,0.0,-0.04,0.03,-0.39,1
0.0,0.0,0.0,-0.0,0.23,-0.44,1
0.0,0.0,0.0,0.19,0.21,-0.16,1
-1.79,-1.23,-5.87,0.19,0.34,-0.09,1
-1.7,-0.77,-6.11,0.02,0.3,-0.08,1
-1.45,-3.4,-6.25,0.16,0.2,-0.33,1
0.0,0.0,0.0,-0.23,0.16,-0.07,1
-0.44,-1.69,-4.92,-0.02,-0.15,0.0,1
-1.79,-0.98,-4.87,0.02,0.28,0.25,1
-0.96,-1.68,-4.59,-0.14,-0.01,0.16,1
-0.45,-1.34,-4.64,0.08,0.0,0.22,1
-0.55,-0.47,-4.49,0.11,0.04,-0.03,1
-0.37,-0.87,-4.68,0.24,0.28,-0.29,1
-1.04,-0.39,-4.68,0.22,0.36,-0.51,1
0.0,0.0,0.0,0.18,0.43,-0.74,1
0.0,0.0,0.0,0.09,0.31,-0.78,1
-4.55,-3.56,-5.46,-0.17,0.09,-0.57,1
-2.36,-0.14,-4.54,-0.38,0.08,-0.36,1
-1.35,-0.87,-5.24,-0.05,0.26,-0.34,1
-1.66,-0.75,-4.21,-0.28,0.16,-0.15,1
-1.17,-0.62,-4.52,0.01,0.0,-0.22,1
-0.89,-1.66,-5.14,-0.01,-0.08,-0.05,1
-1.66,-0.8,-5.61,-0.06,-0.14,0.14,1
0.0,0.0,0.0,-0.06,-0.25,0.23,1
0.0,0.0,0.0,0.15,0.05,-0.11,1
0.0,0.0,0.0,-0.05,0.32,-0.05,1
0.0,0.0,0.0,-0.21,-0.22,-0.18,1
0.0,0.0,0.0,-0.24,-0.13,-0.32,1
0.0,0.0,0.0,-0.09,-0.09,-0.47,1
0.0,0.0,0.0,-0.15,-0.23,-0.47,1
0.0,0.0,0.0,-0.18,-0.0,-0.28,1
0.0,0.0,0.0,-0.13,-0.14,-0.24,1
0.0,0.0,0.0,-0.12,-0.0,-0.21,1
0.0,0.0,0.0,0.0,0.04,-0.23,1
0.0,0.0,0.0,-0.0,0.1,-0.25,1
0.0,0.0,0.0,0.0,0.18,-0.3,1
0.0,0.0,0.0,0.0,0.07,-0.5,1
0.0,0.0,0.0,0.03,-0.02,-0.61,1
0.0,0.0,0.0,0.04,-0.04,-0.51,1
0.0,0.0,0.0,-0.01,-0.22,-0.51,1
0.0,0.0,0.0,-0.05,-0.38,-0.39,1
0.0,0.0,0.0,0.01,-0.52,-0.15,1
0.0,0.0,0.0,0.08,-0.68,-0.05,1
0.0,0.0,0.0,0.04,-0.85,0.08,1
0.0,0.0,0.0,-0.2,-0.38,0.22,1
0.0,0.0,0.0,-0.31,-0.83,0.05,1
0.0,0.0,0.0,-0.37,-0.38,0.11,1
0.0,0.0,0.0,-0.36,-0.63,-0.01,1
0.0,0.0,0.0,-0.37,-0.65,-0.19,1
0.0,0.0,0.0,-0.37,-0.6,-0.29,1
0.0,0.0,0.0,-0.24,-0.59,-0.31,1
0.0,0.0,0.0,-0.15,-0.52,-0.36,1
0.0,0.0,0.0,-0.2,-0.65,-0.48,1
0.0,0.0,0.0,-0.11,-0.66,-0.43,1
0.0,0.0,0.0,-0.0,-0.71,-0.16,1
0.0,0.0,0.0,-0.28,-0.77,-0.13,1
0.0,0.0,0.0,0.0,-1.03,-0.22,1
0.0,0.0,0.0,-0.19,-0.98,-0.06,1
0.0,0.0,0.0,0.0,-1.24,0.11,1
-2.61,-0.88,-1.52,-0.12,-1.49,0.87,1
-7.84,-2.2,-6.32,-1.82,-1.49,0.84,1
-6.25,2.41,-4.28,-0.49,-0.54,0.72,1
-4.6,0.53,-4.08,-0.5,-0.12,0.3,1
-5.79,-1.19,-4.65,-0.94,-0.3,-0.2,1
-4.19,0.25,-6.88,-0.93,0.26,-0.63,1
-6.36,0.29,-6.51,-0.86,-0.55,-0.77,1
-4.79,3.54,-5.84,-0.82,-0.69,-0.5,1
-4.62,1.59,-5.69,0.06,-0.45,-0.61,1
-3.31,0.99,-5.17,-0.32,-0.56,-0.12,1
-4.37,0.99,-4.07,-0.21,-0.64,-1.11,1
-0.74,1.39,-6.48,-1.86,0.81,-1.38,1
-1.73,3.23,-7.2,-2.89,1.24,-0.45,1
-14.47,0.79,-9.37,-1.85,1.1,0.57,1
-0.24,2.75,-7.3,-0.1,-0.34,-0.02,1
-5.59,0.74,-7.98,-0.42,-1.2,-1.04,1
-1.49,0.78,-7.45,0.0,-2.24,-1.27,1
-0.48,-1.84,-5.67,-0.19,-1.2,-1.25,1
-3.03,-1.9,-4.88,0.07,-0.46,-0.91,1
-2.88,-1.11,-4.39,-0.18,-0.52,-0.56,1
-2.19,-1.2,-4.37,-0.13,-0.12,-0.31,1
-2.16,-0.0,-4.7,-0.19,-0.13,-0.15,1
-2.33,-0.46,-5.0,-0.23,-0.33,-0.25,1
0.0,0.0,0.0,-0.24,-0.27,-0.31,1
0.0,0.0,0.0,-0.23,-0.19,-0.01,1
0.0,0.0,0.0,-0.1,-0.31,-0.27,1
0.0,0.0,0.0,-0.12,-0.44,-0.25,1
